[
	{
		"success": true,
		"timeout": false,
		"failed_images": [],
		"failed_audio": [],
		"failed_video": [],
		"trial_type": "preload",
		"trial_index": 0,
		"time_elapsed": 90,
		"internal_node_id": "0.0-0.0"
	},
	{
		"rt": 1219,
		"stimulus": "<p>Welcome to hearing_test!<p/>",
		"response": "enter",
		"trial_type": "html-keyboard-response",
		"trial_index": 1,
		"time_elapsed": 1309,
		"internal_node_id": "0.0-1.0"
	},
	{
		"success": true,
		"rt": 873,
		"trial_type": "fullscreen",
		"trial_index": 2,
		"time_elapsed": 3185,
		"internal_node_id": "0.0-2.0"
	},
	{
		"rt": null,
		"stimulus": "assets/aggogik/post/4.mp3",
		"response": null,
		"trial_type": "audio-keyboard-response",
		"trial_index": 3,
		"time_elapsed": 18103,
		"internal_node_id": "0.0-3.0"
	},
	{
		"rt": null,
		"stimulus": "assets/aggogik/pre/4.mp3",
		"response": null,
		"trial_type": "audio-keyboard-response",
		"trial_index": 4,
		"time_elapsed": 31124,
		"internal_node_id": "0.0-4.0"
	},
	{
		"rt": 2094,
		"stimulus": "<p>3拍子またはritはどちらですか</p>",
		"response": 0,
		"trial_type": "html-button-response",
		"trial_index": 5,
		"time_elapsed": 33231,
		"internal_node_id": "0.0-5.0",
		"correct": true
	},
	{
		"rt": null,
		"stimulus": "assets/metre/post/2.mp3",
		"response": null,
		"trial_type": "audio-keyboard-response",
		"trial_index": 6,
		"time_elapsed": 46216,
		"internal_node_id": "0.0-6.0"
	},
	{
		"rt": null,
		"stimulus": "assets/metre/pre/2.mp3",
		"response": null,
		"trial_type": "audio-keyboard-response",
		"trial_index": 7,
		"time_elapsed": 59201,
		"internal_node_id": "0.0-7.0"
	},
	{
		"rt": 2160,
		"stimulus": "<p>3拍子またはritはどちらですか</p>",
		"response": 0,
		"trial_type": "html-button-response",
		"trial_index": 8,
		"time_elapsed": 61362,
		"internal_node_id": "0.0-8.0",
		"correct": true
	},
	{
		"rt": null,
		"stimulus": "assets/aggogik/post/6.mp3",
		"response": null,
		"trial_type": "audio-keyboard-response",
		"trial_index": 9,
		"time_elapsed": 79129,
		"internal_node_id": "0.0-9.0"
	},
	{
		"rt": null,
		"stimulus": "assets/aggogik/pre/6.mp3",
		"response": null,
		"trial_type": "audio-keyboard-response",
		"trial_index": 10,
		"time_elapsed": 89299,
		"internal_node_id": "0.0-10.0"
	},
	{
		"rt": 878,
		"stimulus": "<p>3拍子またはritはどちらですか</p>",
		"response": 0,
		"trial_type": "html-button-response",
		"trial_index": 11,
		"time_elapsed": 90178,
		"internal_node_id": "0.0-11.0",
		"correct": true
	},
	{
		"rt": null,
		"stimulus": "assets/aggogik/post/5.mp3",
		"response": null,
		"trial_type": "audio-keyboard-response",
		"trial_index": 12,
		"time_elapsed": 106045,
		"internal_node_id": "0.0-12.0"
	},
	{
		"rt": null,
		"stimulus": "assets/aggogik/pre/5.mp3",
		"response": null,
		"trial_type": "audio-keyboard-response",
		"trial_index": 13,
		"time_elapsed": 118113,
		"internal_node_id": "0.0-13.0"
	},
	{
		"rt": 1996,
		"stimulus": "<p>3拍子またはritはどちらですか</p>",
		"response": 0,
		"trial_type": "html-button-response",
		"trial_index": 14,
		"time_elapsed": 120111,
		"internal_node_id": "0.0-14.0",
		"correct": true
	},
	{
		"rt": null,
		"stimulus": "assets/metre/post/1.mp3",
		"response": null,
		"trial_type": "audio-keyboard-response",
		"trial_index": 15,
		"time_elapsed": 133095,
		"internal_node_id": "0.0-15.0"
	},
	{
		"rt": null,
		"stimulus": "assets/metre/pre/1.mp3",
		"response": null,
		"trial_type": "audio-keyboard-response",
		"trial_index": 16,
		"time_elapsed": 146081,
		"internal_node_id": "0.0-16.0"
	},
	{
		"rt": 1342,
		"stimulus": "<p>3拍子またはritはどちらですか</p>",
		"response": 0,
		"trial_type": "html-button-response",
		"trial_index": 17,
		"time_elapsed": 147424,
		"internal_node_id": "0.0-17.0",
		"correct": true
	},
	{
		"rt": null,
		"stimulus": "assets/metre/post/3.mp3",
		"response": null,
		"trial_type": "audio-keyboard-response",
		"trial_index": 18,
		"time_elapsed": 160407,
		"internal_node_id": "0.0-18.0"
	},
	{
		"rt": null,
		"stimulus": "assets/metre/pre/3.mp3",
		"response": null,
		"trial_type": "audio-keyboard-response",
		"trial_index": 19,
		"time_elapsed": 173392,
		"internal_node_id": "0.0-19.0"
	},
	{
		"rt": 2298,
		"stimulus": "<p>3拍子またはritはどちらですか</p>",
		"response": 0,
		"trial_type": "html-button-response",
		"trial_index": 20,
		"time_elapsed": 175691,
		"internal_node_id": "0.0-20.0",
		"correct": true
	}
]